Folder: retailMarketAnalysis/data/performance

File: TGA.csv
date,close,volume
2018-04-25,1.63,88310
2018-04-27,1.65,241543
2018-05-01,1.83,180477
2018-05-03,1.93,144592
2018-05-07,1.96,243615
2018-05-09,2.12,620575
2018-05-11,1.91,377414
2018-05-15,1.95,367486
2018-05-17,2.04,664287
2018-05-21,2.64,1888867
2018-05-23,2.44,686750
2018-05-25,2.27,519015
2018-05-30,2.49,483616
2018-06-01,2.47,415879
2018-06-05,2.36,428678
2018-06-07,2.45,279062
2018-06-11,2.37,482481
2018-06-13,2.4,401697
2018-06-15,2.24,431375
2018-06-19,2.38,239488
2018-06-21,2.31,178407
2018-06-25,2.4,165693
2018-06-27,2.63,921135
2018-06-29,2.77,641578
2018-07-03,2.87,940880
2018-07-06,2.94,503533
2018-07-10,3.41,1388632
2018-07-12,3.76,1408573
2018-07-16,3.77,1696857
2018-07-18,3.59,999077
2018-07-20,3.43,600024
2018-07-24,3.37,684979
2018-07-26,3.35,318316
2018-07-30,3.13,359477
2018-08-01,3.24,330377
2018-08-03,3.22,581276
2018-08-07,3.19,304758
2018-08-09,3.21,209262
2018-08-13,3.06,535053
2018-08-15,2.93,731248
2018-08-17,3.12,647208
2018-08-21,3.47,575477
2018-08-23,3.42,553845
2018-08-27,3.47,231808
2018-08-29,3.46,149776
2018-08-31,3.36,142985
2018-09-05,3.3,448471
2018-09-07,3.21,119194
2018-09-11,3.74,805400
2018-09-13,3.57,237828
2018-09-17,3.55,185804
2018-09-19,3.39,184086
2018-09-21,3.32,286338
2018-09-25,3.44,703328
2018-09-27,3.3,413943
2018-10-01,3.52,466184
2018-10-03,3.45,776343
2018-10-05,3.32,1167928
2018-10-09,3.35,157091
2018-10-11,3.0,497805
2018-10-15,3.02,372056
2018-10-17,3.09,230143
2018-10-19,2.99,229554
2018-10-23,2.03,2656508
2018-10-25,2.45,526121
2018-10-29,2.31,321060
2018-10-31,2.31,209198
2018-11-02,2.36,217971
2018-11-06,2.39,181261
2018-11-08,2.22,358571
2018-11-12,2.11,279461
2018-11-14,2.15,243351
2018-11-16,2.25,139373
2018-11-20,2.14,271729
2018-11-23,2.13,43045
2018-11-27,2.01,248142
2018-11-29,2.17,175954
2018-12-03,2.18,139522
2018-12-06,1.96,267495
2018-12-10,1.81,350949
2018-12-12,1.88,219854
2018-12-14,1.78,77116
2018-12-18,1.71,187583
2018-12-20,1.62,302601
2018-12-24,1.52,131869
2018-12-27,1.68,116338
2018-12-31,1.87,240242
2019-01-03,1.89,73237
2019-01-07,2.07,182583
2019-01-09,2.09,135859
2019-01-11,1.98,36152
2019-01-15,1.96,55244
2019-01-17,1.94,40371
2019-01-22,1.76,97054
2019-01-24,1.79,96753
2019-01-28,1.79,16799
2019-01-30,1.83,167468
2019-02-01,1.93,101705
2019-02-05,1.92,42499
2019-02-07,1.87,23427
2019-02-11,1.85,50591
2019-02-13,1.98,90024
2019-02-15,2.09,135272
2019-02-20,2.01,96727
2019-02-22,2.07,78945
2019-02-26,1.98,69955
2019-02-28,1.98,72475
2019-03-04,1.98,74370
2019-03-06,2.04,130748
2019-03-08,2.02,59004
2019-03-12,2.11,143027
2019-03-14,2.08,106073
2019-03-18,2.17,131085
2019-03-20,2.14,155915
2019-03-22,1.98,269987
2019-03-26,1.75,448275
2019-03-28,1.85,138212
2019-04-01,1.86,216757
2019-04-03,1.8,76699
2019-04-05,1.84,88358
2019-04-09,1.86,56554
2019-04-11,1.88,88099
2019-04-15,1.86,131966
2019-04-17,1.86,58421
2019-04-22,1.95,134946
2019-04-24,1.92,158850
2019-04-26,1.9,97129
2019-04-30,1.95,58159
2019-05-02,1.89,34605
2019-05-06,1.87,148526
2019-05-08,1.82,60662
2019-05-10,1.78,103545
2019-05-14,1.76,155519
2019-05-16,1.76,70216
2019-05-20,1.7,189272
2019-05-22,1.6,102432
2019-05-24,1.51,135467
2019-05-29,1.51,98125
2019-05-31,1.5,105129
2019-06-04,1.54,64752
2019-06-06,1.51,68009
2019-06-10,1.49,195468
2019-06-12,1.42,141939
2019-06-14,1.4,122096
2019-06-18,1.45,59341
2019-06-20,1.45,250860
2019-06-24,1.39,102024
2019-06-26,1.42,220041
2019-06-28,1.39,56224
2019-07-02,1.36,86327
2019-07-05,1.35,61844
2019-07-09,1.37,101651
2019-07-11,1.47,167493
2019-07-15,1.48,75345
2019-07-17,1.43,175353
2019-07-19,1.45,102566
2019-07-23,1.45,20762
2019-07-25,1.41,44812
2019-07-29,1.4,121594
2019-07-31,1.55,195386
2019-08-02,1.46,98179
2019-08-06,1.43,201502
2019-08-08,1.44,134609
2019-08-12,1.48,124176
2019-08-14,1.43,146078
2019-08-16,1.47,107665
2019-08-20,1.42,52251
2019-08-22,1.43,38045
2019-08-26,1.33,114811
2019-08-28,1.35,99917
2019-08-30,1.33,107811
2019-09-04,1.35,261866
2019-09-06,1.4,68281
2019-09-10,1.49,260699
2019-09-12,1.43,225106
2019-09-16,1.52,382457
2019-09-18,1.44,274574
2019-09-20,1.43,216438
2019-09-24,1.39,107354
2019-09-26,1.36,169801
2019-09-30,1.33,110060
2019-10-02,1.28,233329
2019-10-04,1.31,28906
2019-10-08,1.31,91703
2019-10-10,1.27,240396
2019-10-14,1.3,35702
2019-10-16,1.26,62526
2019-10-18,1.25,110842
2019-10-22,1.24,136985
2019-10-24,1.23,123739
2019-10-28,1.2,138955
2019-10-30,1.17,80614
2019-11-01,1.17,158321
2019-11-05,1.26,110904
2019-11-07,1.24,73214
2019-11-11,1.22,76709
2019-11-13,1.17,52422
2019-11-15,1.18,123438
2019-11-19,1.12,259765
2019-11-21,1.14,103496
2019-11-25,1.14,199252
2019-11-27,1.14,77077
2019-12-02,1.12,163730
2019-12-04,1.14,220913
2019-12-06,1.19,155696
2019-12-10,1.19,99420
2019-12-12,1.23,179305
2019-12-16,1.28,179353
2019-12-18,1.3,115353
2019-12-20,1.45,409817
2019-12-24,1.45,55086
2019-12-27,1.43,134394
2019-12-31,1.38,724228
2020-01-03,1.45,257440
2020-01-07,1.4,107005
2020-01-09,1.39,299466
2020-01-13,1.43,151600
2020-01-15,1.36,78468
2020-01-17,1.39,166553
2020-01-22,1.36,83410
2020-01-24,1.27,123913
2020-01-28,1.26,79206
2020-01-30,1.3,164551
2020-02-03,1.25,79346
2020-02-05,1.28,159124
2020-02-07,1.28,78307
2020-02-11,1.23,64450
2020-02-13,1.23,41312
2020-02-18,1.2,105166
2020-02-20,1.22,88596
2020-02-24,1.21,87694
2020-02-26,1.14,173076
2020-02-28,1.09,307225
2020-03-03,1.11,64528
2020-03-05,1.08,81822
2020-03-09,0.6923,884171
2020-03-11,0.6353,203893
2020-03-13,0.481,443712
2020-03-17,0.457,52345
2020-03-19,0.3808,206288
2020-03-23,0.389,111674
2020-03-25,0.4671,590231
2020-03-27,0.3897,112512
2020-03-31,0.36,236533
2020-04-02,0.39,566725
2020-04-06,0.4067,126370
2020-04-08,0.445,74365
2020-04-13,0.43,199920
2020-04-15,0.425,92451
2020-04-17,0.4375,93114
2020-04-21,0.42,73669
2020-04-23,0.4501,115277
2020-04-27,0.4688,85025
2020-04-29,0.5629,347571
2020-05-01,0.57,235508
2020-05-05,0.5645,264950
2020-05-07,0.5458,70459
2020-05-11,0.52,87459
2020-05-13,0.4869,62174
2020-05-15,0.5,91021
2020-05-19,0.52,198468
2020-05-21,0.5679,88259
2020-05-26,0.5572,183017
2020-05-28,0.54,149827
2020-06-01,0.524,117944
2020-06-03,0.5401,166413
2020-06-05,0.633,422348
2020-06-09,0.69,268540
2020-06-11,0.5699,164259
2020-06-15,0.5867,103795
2020-06-17,0.579,110327
2020-06-19,0.55,196314
2020-06-23,0.5804,180688
2020-06-25,0.5551,70583
2020-06-29,0.5626,142636
2020-07-01,0.59,105751
2020-07-06,0.62,558745
2020-07-08,0.625,140556
2020-07-10,0.6,77937
2020-07-14,0.589,102474
2020-07-16,0.6,46118
2020-07-20,0.5758,77758
2020-07-22,0.614,599147
2020-07-24,0.5925,114607
2020-07-28,0.5851,123712
2020-07-30,0.57,120775
2020-08-03,0.5712,95965
2020-08-05,0.6018,190721
2020-08-07,0.6,79812
2020-08-11,0.61,108573
2020-08-13,0.6,82231
2020-08-14,0.587,82333